"group3 - RawData"
"Wavelength nm.","Abs."
510.00,0.033
510.05,0.034
510.10,0.036
510.15,0.037
510.20,0.039
510.25,0.038
510.30,0.037
510.35,0.036
510.40,0.038
510.45,0.036
510.50,0.035
510.55,0.036
510.60,0.036
510.65,0.033
510.70,0.034
510.75,0.035
510.80,0.034
510.85,0.032
510.90,0.034
510.95,0.033
511.00,0.033
511.05,0.038
511.10,0.037
511.15,0.039
511.20,0.038
511.25,0.037
511.30,0.037
511.35,0.035
511.40,0.038
511.45,0.036
511.50,0.035
511.55,0.037
511.60,0.034
511.65,0.036
511.70,0.035
511.75,0.034
511.80,0.034
511.85,0.034
511.90,0.035
511.95,0.033
512.00,0.032
512.05,0.036
512.10,0.039
512.15,0.039
512.20,0.040
512.25,0.036
512.30,0.038
512.35,0.039
512.40,0.037
512.45,0.038
512.50,0.038
512.55,0.036
512.60,0.037
512.65,0.034
512.70,0.036
512.75,0.034
512.80,0.034
512.85,0.033
512.90,0.033
512.95,0.033
513.00,0.034
513.05,0.032
513.10,0.036
513.15,0.037
513.20,0.039
513.25,0.041
513.30,0.038
513.35,0.039
513.40,0.038
513.45,0.039
513.50,0.037
513.55,0.038
513.60,0.037
513.65,0.035
513.70,0.037
513.75,0.036
513.80,0.035
513.85,0.035
513.90,0.035
513.95,0.033
514.00,0.035
514.05,0.034
514.10,0.035
514.15,0.036
514.20,0.033
514.25,0.034
514.30,0.041
514.35,0.038
514.40,0.040
514.45,0.040
514.50,0.040
514.55,0.039
514.60,0.037
514.65,0.038
514.70,0.038
514.75,0.038
514.80,0.037
514.85,0.038
514.90,0.038
514.95,0.037
515.00,0.037
515.05,0.035
515.10,0.036
515.15,0.035
515.20,0.035
515.25,0.034
515.30,0.033
515.35,0.035
515.40,0.034
515.45,0.037
515.50,0.041
515.55,0.041
515.60,0.042
515.65,0.040
515.70,0.039
515.75,0.040
515.80,0.038
515.85,0.039
515.90,0.035
515.95,0.037
516.00,0.035
516.05,0.035
516.10,0.037
516.15,0.034
516.20,0.035
516.25,0.035
516.30,0.033
516.35,0.033
516.40,0.035
516.45,0.035
516.50,0.030
516.55,0.034
516.60,0.032
516.65,0.039
516.70,0.042
516.75,0.040
516.80,0.041
516.85,0.039
516.90,0.040
516.95,0.038
517.00,0.039
517.05,0.039
517.10,0.038
517.15,0.038
517.20,0.038
517.25,0.039
517.30,0.038
517.35,0.037
517.40,0.036
517.45,0.036
517.50,0.034
517.55,0.034
517.60,0.033
517.65,0.035
517.70,0.033
517.75,0.035
517.80,0.033
517.85,0.033
517.90,0.037
517.95,0.039
518.00,0.041
518.05,0.042
518.10,0.041
518.15,0.042
518.20,0.041
518.25,0.042
518.30,0.040
518.35,0.037
518.40,0.037
518.45,0.037
518.50,0.038
518.55,0.038
518.60,0.035
518.65,0.037
518.70,0.036
518.75,0.038
518.80,0.035
518.85,0.035
518.90,0.035
518.95,0.035
519.00,0.035
519.05,0.034
519.10,0.035
519.15,0.035
519.20,0.034
519.25,0.033
519.30,0.039
519.35,0.042
519.40,0.041
519.45,0.041
519.50,0.043
519.55,0.042
519.60,0.039
519.65,0.039
519.70,0.038
519.75,0.037
519.80,0.038
519.85,0.036
519.90,0.035
519.95,0.037
520.00,0.037
520.05,0.035
520.10,0.037
520.15,0.036
520.20,0.035
520.25,0.034
520.30,0.035
520.35,0.034
520.40,0.033
520.45,0.034
520.50,0.032
520.55,0.032
520.60,0.033
520.65,0.032
520.70,0.033
520.75,0.043
520.80,0.043
520.85,0.043
520.90,0.041
520.95,0.041
521.00,0.040
521.05,0.041
521.10,0.042
521.15,0.040
521.20,0.041
521.25,0.036
521.30,0.037
521.35,0.039
521.40,0.037
521.45,0.039
521.50,0.036
521.55,0.039
521.60,0.036
521.65,0.037
521.70,0.035
521.75,0.034
521.80,0.033
521.85,0.035
521.90,0.034
521.95,0.033
522.00,0.031
522.05,0.034
522.10,0.032
522.15,0.035
522.20,0.042
522.25,0.042
522.30,0.042
522.35,0.041
522.40,0.045
522.45,0.039
522.50,0.044
522.55,0.040
522.60,0.039
522.65,0.042
522.70,0.038
522.75,0.041
522.80,0.037
522.85,0.039
522.90,0.037
522.95,0.036
523.00,0.036
523.05,0.036
523.10,0.036
523.15,0.036
523.20,0.035
523.25,0.034
523.30,0.033
523.35,0.033
523.40,0.035
523.45,0.030
523.50,0.033
523.55,0.032
523.60,0.033
523.65,0.036
523.70,0.041
523.75,0.043
523.80,0.044
523.85,0.043
523.90,0.042
523.95,0.039
524.00,0.042
524.05,0.040
524.10,0.041
524.15,0.041
524.20,0.040
524.25,0.039
524.30,0.038
524.35,0.037
524.40,0.039
524.45,0.037
524.50,0.037
524.55,0.036
524.60,0.038
524.65,0.037
524.70,0.036
524.75,0.034
524.80,0.035
524.85,0.034
524.90,0.032
524.95,0.034
525.00,0.034
525.05,0.031
525.10,0.033
525.15,0.031
525.20,0.032
525.25,0.035
525.30,0.041
525.35,0.044
525.40,0.043
525.45,0.044
525.50,0.042
525.55,0.043
525.60,0.043
525.65,0.042
525.70,0.042
525.75,0.040
525.80,0.039
525.85,0.042
525.90,0.039
525.95,0.036
526.00,0.040
526.05,0.035
526.10,0.039
526.15,0.035
526.20,0.037
526.25,0.036
526.30,0.034
526.35,0.037
526.40,0.036
526.45,0.034
526.50,0.033
526.55,0.034
526.60,0.030
526.65,0.030
526.70,0.034
526.75,0.033
526.80,0.032
526.85,0.031
526.90,0.033
526.95,0.042
527.00,0.046
527.05,0.045
527.10,0.046
527.15,0.043
527.20,0.044
527.25,0.044
527.30,0.042
527.35,0.043
527.40,0.042
527.45,0.041
527.50,0.040
527.55,0.040
527.60,0.039
527.65,0.041
527.70,0.038
527.75,0.037
527.80,0.036
527.85,0.038
527.90,0.037
527.95,0.035
528.00,0.036
528.05,0.034
528.10,0.034
528.15,0.034
528.20,0.034
528.25,0.034
528.30,0.031
528.35,0.033
528.40,0.033
528.45,0.032
528.50,0.034
528.55,0.031
528.60,0.031
528.65,0.033
528.70,0.032
528.75,0.042
528.80,0.046
528.85,0.046
528.90,0.047
528.95,0.044
529.00,0.042
529.05,0.046
529.10,0.041
529.15,0.041
529.20,0.039
529.25,0.041
529.30,0.042
529.35,0.038
529.40,0.036
529.45,0.039
529.50,0.041
529.55,0.036
529.60,0.035
529.65,0.036
529.70,0.038
529.75,0.035
529.80,0.033
529.85,0.035
529.90,0.036
529.95,0.034
530.00,0.034
530.05,0.032
530.10,0.033
530.15,0.034
530.20,0.031
530.25,0.032
530.30,0.030
530.35,0.031
530.40,0.032
530.45,0.030
530.50,0.030
530.55,0.034
530.60,0.041
530.65,0.045
530.70,0.044
530.75,0.045
530.80,0.044
530.85,0.044
530.90,0.042
530.95,0.041
531.00,0.041
531.05,0.042
531.10,0.041
531.15,0.042
531.20,0.039
531.25,0.039
531.30,0.038
531.35,0.037
531.40,0.036
531.45,0.037
531.50,0.038
531.55,0.035
531.60,0.035
531.65,0.035
531.70,0.036
531.75,0.034
531.80,0.034
531.85,0.035
531.90,0.033
531.95,0.030
532.00,0.032
532.05,0.033
532.10,0.029
532.15,0.032
532.20,0.030
532.25,0.031
532.30,0.031
532.35,0.029
532.40,0.031
532.45,0.035
532.50,0.043
532.55,0.046
532.60,0.045
532.65,0.046
532.70,0.043
532.75,0.044
532.80,0.044
532.85,0.044
532.90,0.040
532.95,0.043
533.00,0.041
533.05,0.039
533.10,0.039
533.15,0.037
533.20,0.037
533.25,0.037
533.30,0.036
533.35,0.036
533.40,0.036
533.45,0.036
533.50,0.034
533.55,0.033
533.60,0.035
533.65,0.037
533.70,0.032
533.75,0.035
533.80,0.032
533.85,0.032
533.90,0.031
533.95,0.032
534.00,0.031
534.05,0.033
534.10,0.030
534.15,0.030
534.20,0.029
534.25,0.031
534.30,0.032
534.35,0.030
534.40,0.031
534.45,0.039
534.50,0.043
534.55,0.045
534.60,0.045
534.65,0.046
534.70,0.040
534.75,0.046
534.80,0.041
534.85,0.043
534.90,0.042
534.95,0.042
535.00,0.040
535.05,0.040
535.10,0.038
535.15,0.040
535.20,0.038
535.25,0.036
535.30,0.035
535.35,0.035
535.40,0.036
535.45,0.034
535.50,0.036
535.55,0.037
535.60,0.034
535.65,0.036
535.70,0.033
535.75,0.032
535.80,0.032
535.85,0.031
535.90,0.030
535.95,0.033
536.00,0.031
536.05,0.032
536.10,0.029
536.15,0.030
536.20,0.029
536.25,0.030
536.30,0.031
536.35,0.030
536.40,0.028
536.45,0.031
536.50,0.036
536.55,0.045
536.60,0.046
536.65,0.045
536.70,0.045
536.75,0.043
536.80,0.044
536.85,0.043
536.90,0.042
536.95,0.042
537.00,0.040
537.05,0.040
537.10,0.040
537.15,0.038
537.20,0.039
537.25,0.037
537.30,0.038
537.35,0.038
537.40,0.037
537.45,0.036
537.50,0.037
537.55,0.036
537.60,0.036
537.65,0.034
537.70,0.035
537.75,0.036
537.80,0.033
537.85,0.034
537.90,0.031
537.95,0.032
538.00,0.030
538.05,0.032
538.10,0.032
538.15,0.030
538.20,0.030
538.25,0.030
538.30,0.028
538.35,0.030
538.40,0.028
538.45,0.028
538.50,0.029
538.55,0.030
538.60,0.037
538.65,0.046
538.70,0.045
538.75,0.045
538.80,0.044
538.85,0.044
538.90,0.043
538.95,0.044
539.00,0.043
539.05,0.041
539.10,0.039
539.15,0.042
539.20,0.042
539.25,0.037
539.30,0.040
539.35,0.036
539.40,0.037
539.45,0.039
539.50,0.038
539.55,0.038
539.60,0.037
539.65,0.037
539.70,0.035
539.75,0.035
539.80,0.032
539.85,0.034
539.90,0.031
539.95,0.031
540.00,0.032
540.05,0.032
540.10,0.031
540.15,0.029
540.20,0.030
540.25,0.029
540.30,0.031
540.35,0.027
540.40,0.028
540.45,0.027
540.50,0.027
540.55,0.026
540.60,0.026
540.65,0.028
540.70,0.028
540.75,0.031
540.80,0.039
540.85,0.043
540.90,0.045
540.95,0.044
541.00,0.044
541.05,0.044
541.10,0.043
541.15,0.043
541.20,0.042
541.25,0.040
541.30,0.041
541.35,0.039
541.40,0.040
541.45,0.041
541.50,0.038
541.55,0.038
541.60,0.037
541.65,0.038
541.70,0.037
541.75,0.035
541.80,0.035
541.85,0.036
541.90,0.034
541.95,0.034
542.00,0.033
542.05,0.032
542.10,0.033
542.15,0.031
542.20,0.032
542.25,0.030
542.30,0.029
542.35,0.030
542.40,0.029
542.45,0.029
542.50,0.030
542.55,0.028
542.60,0.028
542.65,0.028
542.70,0.028
542.75,0.028
542.80,0.028
542.85,0.031
542.90,0.029
542.95,0.028
543.00,0.028
543.05,0.032
543.10,0.040
543.15,0.046
543.20,0.043
543.25,0.043
543.30,0.044
543.35,0.043
543.40,0.040
543.45,0.041
543.50,0.039
543.55,0.040
543.60,0.040
543.65,0.037
543.70,0.039
543.75,0.037
543.80,0.037
543.85,0.035
543.90,0.036
543.95,0.034
544.00,0.034
544.05,0.035
544.10,0.034
544.15,0.033
544.20,0.032
544.25,0.032
544.30,0.032
544.35,0.031
544.40,0.032
544.45,0.030
544.50,0.031
544.55,0.031
544.60,0.030
544.65,0.028
544.70,0.029
544.75,0.029
544.80,0.029
544.85,0.029
544.90,0.029
544.95,0.031
545.00,0.031
545.05,0.031
545.10,0.027
545.15,0.029
545.20,0.029
545.25,0.028
545.30,0.027
545.35,0.028
545.40,0.028
545.45,0.029
545.50,0.040
545.55,0.044
545.60,0.043
545.65,0.043
545.70,0.040
545.75,0.042
545.80,0.040
545.85,0.040
545.90,0.039
545.95,0.036
546.00,0.039
546.05,0.037
546.10,0.035
546.15,0.035
546.20,0.037
546.25,0.034
546.30,0.034
546.35,0.033
546.40,0.031
546.45,0.032
546.50,0.032
546.55,0.031
546.60,0.033
546.65,0.030
546.70,0.030
546.75,0.031
546.80,0.029
546.85,0.029
546.90,0.031
546.95,0.027
547.00,0.030
547.05,0.027
547.10,0.028
547.15,0.029
547.20,0.031
547.25,0.031
547.30,0.030
547.35,0.030
547.40,0.031
547.45,0.027
547.50,0.028
547.55,0.027
547.60,0.028
547.65,0.027
547.70,0.026
547.75,0.027
547.80,0.028
547.85,0.030
547.90,0.039
547.95,0.042
548.00,0.040
548.05,0.041
548.10,0.041
548.15,0.040
548.20,0.040
548.25,0.038
548.30,0.039
548.35,0.037
548.40,0.038
548.45,0.036
548.50,0.035
548.55,0.036
548.60,0.034
548.65,0.035
548.70,0.035
548.75,0.030
548.80,0.033
548.85,0.031
548.90,0.031
548.95,0.032
549.00,0.030
549.05,0.032
549.10,0.029
549.15,0.029
549.20,0.029
549.25,0.030
549.30,0.029
549.35,0.028
549.40,0.029
549.45,0.033
549.50,0.033
549.55,0.032
549.60,0.034
549.65,0.031
549.70,0.031
549.75,0.029
549.80,0.030
549.85,0.030
549.90,0.029
549.95,0.028
550.00,0.029
550.05,0.026
550.10,0.026
550.15,0.025
550.20,0.027
550.25,0.026
550.30,0.024
550.35,0.030
550.40,0.035
550.45,0.039
550.50,0.042
550.55,0.040
550.60,0.040
550.65,0.038
550.70,0.036
550.75,0.036
550.80,0.036
550.85,0.035
550.90,0.034
550.95,0.034
551.00,0.034
551.05,0.033
551.10,0.032
551.15,0.032
551.20,0.032
551.25,0.032
551.30,0.032
551.35,0.031
551.40,0.031
551.45,0.030
551.50,0.030
551.55,0.031
551.60,0.030
551.65,0.028
551.70,0.029
551.75,0.028
551.80,0.028
551.85,0.030
551.90,0.031
551.95,0.033
552.00,0.031
552.05,0.031
552.10,0.031
552.15,0.031
552.20,0.029
552.25,0.030
552.30,0.030
552.35,0.029
552.40,0.029
552.45,0.028
552.50,0.028
552.55,0.027
552.60,0.028
552.65,0.027
552.70,0.027
552.75,0.028
552.80,0.027
552.85,0.025
552.90,0.025
552.95,0.027
553.00,0.032
553.05,0.035
553.10,0.038
553.15,0.038
553.20,0.039
553.25,0.036
553.30,0.035
553.35,0.035
553.40,0.036
553.45,0.034
553.50,0.035
553.55,0.034
553.60,0.034
553.65,0.033
553.70,0.032
553.75,0.033
553.80,0.033
553.85,0.030
553.90,0.031
553.95,0.030
554.00,0.028
554.05,0.029
554.10,0.030
554.15,0.030
554.20,0.027
554.25,0.027
554.30,0.027
554.35,0.030
554.40,0.032
554.45,0.031
554.50,0.032
554.55,0.032
554.60,0.031
554.65,0.029
554.70,0.031
554.75,0.031
554.80,0.029
554.85,0.030
554.90,0.029
554.95,0.028
555.00,0.027
555.05,0.027
555.10,0.026
555.15,0.027
555.20,0.027
555.25,0.026
555.30,0.025
555.35,0.025
555.40,0.024
555.45,0.026
555.50,0.024
555.55,0.025
555.60,0.024
555.65,0.025
555.70,0.030
555.75,0.034
555.80,0.036
555.85,0.035
555.90,0.036
555.95,0.034
556.00,0.034
556.05,0.034
556.10,0.034
556.15,0.032
556.20,0.032
556.25,0.032
556.30,0.029
556.35,0.030
556.40,0.030
556.45,0.029
556.50,0.026
556.55,0.028
556.60,0.028
556.65,0.029
556.70,0.028
556.75,0.028
556.80,0.027
556.85,0.026
556.90,0.024
556.95,0.027
557.00,0.032
557.05,0.035
557.10,0.032
557.15,0.032
557.20,0.031
557.25,0.030
557.30,0.031
557.35,0.030
557.40,0.029
557.45,0.030
557.50,0.028
557.55,0.028
557.60,0.028
557.65,0.028
557.70,0.029
557.75,0.025
557.80,0.028
557.85,0.029
557.90,0.027
557.95,0.026
558.00,0.023
558.05,0.026
558.10,0.025
558.15,0.024
558.20,0.024
558.25,0.024
558.30,0.022
558.35,0.023
558.40,0.023
558.45,0.025
558.50,0.021
558.55,0.026
558.60,0.034
558.65,0.032
558.70,0.032
558.75,0.033
558.80,0.029
558.85,0.031
558.90,0.030
558.95,0.032
559.00,0.028
559.05,0.029
559.10,0.029
559.15,0.027
559.20,0.028
559.25,0.029
559.30,0.029
559.35,0.026
559.40,0.026
559.45,0.026
559.50,0.024
559.55,0.027
559.60,0.026
559.65,0.025
559.70,0.026
559.75,0.029
559.80,0.031
559.85,0.031
559.90,0.032
559.95,0.031
560.00,0.030
560.05,0.030
560.10,0.029
560.15,0.028
560.20,0.028
560.25,0.028
560.30,0.029
560.35,0.028
560.40,0.027
560.45,0.025
560.50,0.027
560.55,0.026
560.60,0.025
560.65,0.025
560.70,0.025
560.75,0.024
560.80,0.026
560.85,0.023
560.90,0.023
560.95,0.024
561.00,0.023
561.05,0.021
561.10,0.022
561.15,0.020
561.20,0.022
561.25,0.021
561.30,0.022
561.35,0.022
561.40,0.025
561.45,0.031
561.50,0.029
561.55,0.030
561.60,0.028
561.65,0.029
561.70,0.028
561.75,0.027
561.80,0.028
561.85,0.027
561.90,0.027
561.95,0.026
562.00,0.026
562.05,0.024
562.10,0.026
562.15,0.026
562.20,0.024
562.25,0.024
562.30,0.023
562.35,0.024
562.40,0.026
562.45,0.029
562.50,0.032
562.55,0.030
562.60,0.030
562.65,0.030
562.70,0.031
562.75,0.027
562.80,0.032
562.85,0.029
562.90,0.027
562.95,0.029
563.00,0.028
563.05,0.028
563.10,0.027
563.15,0.025
563.20,0.026
563.25,0.024
563.30,0.028
563.35,0.025
563.40,0.024
563.45,0.023
563.50,0.022
563.55,0.022
563.60,0.023
563.65,0.023
563.70,0.024
563.75,0.022
563.80,0.024
563.85,0.021
563.90,0.021
563.95,0.022
564.00,0.020
564.05,0.020
564.10,0.022
564.15,0.022
564.20,0.021
564.25,0.019
564.30,0.020
564.35,0.022
564.40,0.027
564.45,0.030
564.50,0.028
564.55,0.027
564.60,0.026
564.65,0.027
564.70,0.025
564.75,0.023
564.80,0.024
564.85,0.025
564.90,0.025
564.95,0.023
565.00,0.024
565.05,0.022
565.10,0.023
565.15,0.023
565.20,0.024
565.25,0.021
565.30,0.029
565.35,0.029
565.40,0.031
565.45,0.030
565.50,0.030
565.55,0.030
565.60,0.030
565.65,0.028
565.70,0.030
565.75,0.028
565.80,0.027
565.85,0.027
565.90,0.027
565.95,0.025
566.00,0.027
566.05,0.025
566.10,0.027
566.15,0.026
566.20,0.023
566.25,0.024
566.30,0.026
566.35,0.024
566.40,0.022
566.45,0.025
566.50,0.023
566.55,0.022
566.60,0.023
566.65,0.024
566.70,0.022
566.75,0.024
566.80,0.022
566.85,0.021
566.90,0.019
566.95,0.022
567.00,0.020
567.05,0.020
567.10,0.020
567.15,0.019
567.20,0.021
567.25,0.019
567.30,0.018
567.35,0.018
567.40,0.021
567.45,0.022
567.50,0.025
567.55,0.025
567.60,0.024
567.65,0.025
567.70,0.023
567.75,0.024
567.80,0.023
567.85,0.025
567.90,0.023
567.95,0.024
568.00,0.024
568.05,0.022
568.10,0.024
568.15,0.022
568.20,0.024
568.25,0.029
568.30,0.030
568.35,0.031
568.40,0.030
568.45,0.028
568.50,0.028
568.55,0.029
568.60,0.026
568.65,0.028
568.70,0.028
568.75,0.027
568.80,0.026
568.85,0.025
568.90,0.024
568.95,0.026
569.00,0.023
569.05,0.024
569.10,0.024
569.15,0.024
569.20,0.024
569.25,0.024
569.30,0.024
569.35,0.025
569.40,0.022
569.45,0.021
569.50,0.022
569.55,0.022
569.60,0.022
569.65,0.022
569.70,0.022
569.75,0.020
569.80,0.021
569.85,0.019
569.90,0.020
569.95,0.018
570.00,0.020
570.05,0.021
570.10,0.019
570.15,0.018
570.20,0.017
570.25,0.019
570.30,0.016
570.35,0.019
570.40,0.019
570.45,0.017
570.50,0.021
570.55,0.023
570.60,0.022
570.65,0.023
570.70,0.023
570.75,0.022
570.80,0.021
570.85,0.021
570.90,0.020
570.95,0.022
571.00,0.019
571.05,0.021
571.10,0.021
571.15,0.024
571.20,0.029
571.25,0.028
571.30,0.028
571.35,0.028
571.40,0.027
571.45,0.027
571.50,0.025
571.55,0.026
571.60,0.025
571.65,0.026
571.70,0.023
571.75,0.025
571.80,0.026
571.85,0.024
571.90,0.025
571.95,0.024
572.00,0.024
572.05,0.022
572.10,0.025
572.15,0.023
572.20,0.022
572.25,0.022
572.30,0.025
572.35,0.022
572.40,0.021
572.45,0.022
572.50,0.021
572.55,0.022
572.60,0.021
572.65,0.024
572.70,0.021
572.75,0.019
572.80,0.021
572.85,0.018
572.90,0.019
572.95,0.019
573.00,0.018
573.05,0.017
573.10,0.019
573.15,0.017
573.20,0.017
573.25,0.020
573.30,0.018
573.35,0.018
573.40,0.016
573.45,0.016
573.50,0.018
573.55,0.018
573.60,0.017
573.65,0.016
573.70,0.016
573.75,0.017
573.80,0.018
573.85,0.017
573.90,0.022
573.95,0.020
574.00,0.021
574.05,0.019
574.10,0.020
574.15,0.020
574.20,0.019
574.25,0.020
574.30,0.019
574.35,0.020
574.40,0.020
574.45,0.025
574.50,0.024
574.55,0.027
574.60,0.026
574.65,0.025
574.70,0.027
574.75,0.024
574.80,0.025
574.85,0.024
574.90,0.024
574.95,0.021
575.00,0.024
575.05,0.022
575.10,0.021
575.15,0.022
575.20,0.023
575.25,0.022
575.30,0.024
575.35,0.023
575.40,0.022
575.45,0.023
575.50,0.022
575.55,0.021
575.60,0.021
575.65,0.022
575.70,0.019
575.75,0.019
575.80,0.021
575.85,0.020
575.90,0.021
575.95,0.020
576.00,0.021
576.05,0.021
576.10,0.019
576.15,0.017
576.20,0.018
576.25,0.017
576.30,0.017
576.35,0.020
576.40,0.019
576.45,0.019
576.50,0.017
576.55,0.018
576.60,0.015
576.65,0.018
576.70,0.017
576.75,0.017
576.80,0.016
576.85,0.016
576.90,0.017
576.95,0.016
577.00,0.015
577.05,0.016
577.10,0.017
577.15,0.013
577.20,0.017
577.25,0.017
577.30,0.015
577.35,0.017
577.40,0.016
577.45,0.019
577.50,0.015
577.55,0.019
577.60,0.017
577.65,0.021
577.70,0.023
577.75,0.024
577.80,0.023
577.85,0.023
577.90,0.024
577.95,0.022
578.00,0.024
578.05,0.022
578.10,0.021
578.15,0.023
578.20,0.020
578.25,0.020
578.30,0.022
578.35,0.023
578.40,0.022
578.45,0.024
578.50,0.022
578.55,0.022
578.60,0.024
578.65,0.022
578.70,0.024
578.75,0.021
578.80,0.019
578.85,0.020
578.90,0.021
578.95,0.019
579.00,0.019
579.05,0.019
579.10,0.018
579.15,0.018
579.20,0.019
579.25,0.020
579.30,0.017
579.35,0.018
579.40,0.017
579.45,0.018
579.50,0.018
579.55,0.018
579.60,0.016
579.65,0.017
579.70,0.017
579.75,0.017
579.80,0.017
579.85,0.017
579.90,0.017
579.95,0.014
580.00,0.016
580.05,0.015
580.10,0.016
580.15,0.015
580.20,0.016
580.25,0.014
580.30,0.015
580.35,0.014
580.40,0.016
580.45,0.015
580.50,0.017
580.55,0.013
580.60,0.014
580.65,0.015
580.70,0.014
580.75,0.017
580.80,0.017
580.85,0.016
580.90,0.014
580.95,0.017
581.00,0.019
581.05,0.023
581.10,0.021
581.15,0.023
581.20,0.022
581.25,0.021
581.30,0.021
581.35,0.022
581.40,0.021
581.45,0.020
581.50,0.021
581.55,0.020
581.60,0.022
581.65,0.020
581.70,0.022
581.75,0.021
581.80,0.023
581.85,0.021
581.90,0.021
581.95,0.019
582.00,0.021
582.05,0.020
582.10,0.021
582.15,0.019
582.20,0.019
582.25,0.020
582.30,0.019
582.35,0.018
582.40,0.019
582.45,0.017
582.50,0.018
582.55,0.020
582.60,0.016
582.65,0.018
582.70,0.018
582.75,0.017
582.80,0.016
582.85,0.019
582.90,0.016
582.95,0.015
583.00,0.018
583.05,0.015
583.10,0.015
583.15,0.016
583.20,0.017
583.25,0.015
583.30,0.015
583.35,0.016
583.40,0.015
583.45,0.016
583.50,0.014
583.55,0.015
583.60,0.015
583.65,0.015
583.70,0.014
583.75,0.014
583.80,0.014
583.85,0.013
583.90,0.015
583.95,0.015
584.00,0.015
584.05,0.014
584.10,0.014
584.15,0.013
584.20,0.016
584.25,0.014
584.30,0.016
584.35,0.015
584.40,0.015
584.45,0.019
584.50,0.021
584.55,0.019
584.60,0.020
584.65,0.019
584.70,0.018
584.75,0.020
584.80,0.019
584.85,0.022
584.90,0.022
584.95,0.023
585.00,0.022
585.05,0.021
585.10,0.021
585.15,0.019
585.20,0.021
585.25,0.020
585.30,0.021
585.35,0.018
585.40,0.021
585.45,0.018
585.50,0.019
585.55,0.019
585.60,0.020
585.65,0.018
585.70,0.018
585.75,0.017
585.80,0.017
585.85,0.018
585.90,0.017
585.95,0.018
586.00,0.017
586.05,0.016
586.10,0.016
586.15,0.017
586.20,0.015
586.25,0.018
586.30,0.016
586.35,0.018
586.40,0.015
586.45,0.016
586.50,0.015
586.55,0.015
586.60,0.015
586.65,0.012
586.70,0.014
586.75,0.014
586.80,0.016
586.85,0.013
586.90,0.015
586.95,0.013
587.00,0.016
587.05,0.013
587.10,0.015
587.15,0.014
587.20,0.015
587.25,0.013
587.30,0.013
587.35,0.012
587.40,0.012
587.45,0.015
587.50,0.012
587.55,0.013
587.60,0.011
587.65,0.014
587.70,0.012
587.75,0.012
587.80,0.012
587.85,0.011
587.90,0.013
587.95,0.017
588.00,0.017
588.05,0.017
588.10,0.018
588.15,0.016
588.20,0.017
588.25,0.017
588.30,0.022
588.35,0.021
588.40,0.021
588.45,0.020
588.50,0.020
588.55,0.019
588.60,0.019
588.65,0.019
588.70,0.020
588.75,0.020
588.80,0.018
588.85,0.019
588.90,0.018
588.95,0.016
589.00,0.018
589.05,0.018
589.10,0.018
589.15,0.018
589.20,0.016
589.25,0.017
589.30,0.018
589.35,0.016
589.40,0.016
589.45,0.015
589.50,0.017
589.55,0.014
589.60,0.018
589.65,0.016
589.70,0.016
589.75,0.016
589.80,0.016
589.85,0.015
589.90,0.015
589.95,0.016
590.00,0.013
590.05,0.015
590.10,0.013
590.15,0.015
590.20,0.014
590.25,0.013
590.30,0.014
590.35,0.013
590.40,0.013
590.45,0.012
590.50,0.012
590.55,0.013
590.60,0.014
590.65,0.011
590.70,0.013
590.75,0.011
590.80,0.013
590.85,0.011
590.90,0.014
590.95,0.011
591.00,0.013
591.05,0.012
591.10,0.013
591.15,0.011
591.20,0.011
591.25,0.010
591.30,0.011
591.35,0.011
591.40,0.013
591.45,0.012
591.50,0.012
591.55,0.010
591.60,0.012
591.65,0.015
591.70,0.016
591.75,0.016
591.80,0.019
591.85,0.020
591.90,0.018
591.95,0.020
592.00,0.019
592.05,0.018
592.10,0.017
592.15,0.018
592.20,0.019
592.25,0.018
592.30,0.018
592.35,0.017
592.40,0.017
592.45,0.018
592.50,0.017
592.55,0.017
592.60,0.016
592.65,0.015
592.70,0.016
592.75,0.014
592.80,0.015
592.85,0.017
592.90,0.013
592.95,0.015
593.00,0.015
593.05,0.015
593.10,0.015
593.15,0.016
593.20,0.014
593.25,0.014
593.30,0.011
593.35,0.015
593.40,0.014
593.45,0.014
593.50,0.014
593.55,0.013
593.60,0.014
593.65,0.014
593.70,0.013
593.75,0.013
593.80,0.014
593.85,0.013
593.90,0.013
593.95,0.012
594.00,0.014
594.05,0.010
594.10,0.013
594.15,0.012
594.20,0.013
594.25,0.010
594.30,0.013
594.35,0.012
594.40,0.013
594.45,0.012
594.50,0.013
594.55,0.009
594.60,0.014
594.65,0.013
594.70,0.012
594.75,0.011
594.80,0.012
594.85,0.012
594.90,0.011
594.95,0.010
595.00,0.012
595.05,0.010
595.10,0.012
595.15,0.010
595.20,0.010
595.25,0.012
595.30,0.012
595.35,0.017
595.40,0.016
595.45,0.019
595.50,0.015
595.55,0.018
595.60,0.017
595.65,0.019
595.70,0.015
595.75,0.019
595.80,0.015
595.85,0.016
595.90,0.016
595.95,0.017
596.00,0.016
596.05,0.016
596.10,0.016
596.15,0.016
596.20,0.014
596.25,0.016
596.30,0.015
596.35,0.016
596.40,0.015
596.45,0.014
596.50,0.015
596.55,0.014
596.60,0.014
596.65,0.014
596.70,0.015
596.75,0.015
596.80,0.015
596.85,0.012
596.90,0.013
596.95,0.015
597.00,0.015
597.05,0.011
597.10,0.014
597.15,0.012
597.20,0.015
597.25,0.013
597.30,0.012
597.35,0.012
597.40,0.013
597.45,0.014
597.50,0.012
597.55,0.014
597.60,0.012
597.65,0.014
597.70,0.013
597.75,0.012
597.80,0.011
597.85,0.013
597.90,0.012
597.95,0.013
598.00,0.012
598.05,0.012
598.10,0.010
598.15,0.013
598.20,0.011
598.25,0.013
598.30,0.011
598.35,0.013
598.40,0.011
598.45,0.013
598.50,0.012
598.55,0.012
598.60,0.011
598.65,0.012
598.70,0.013
598.75,0.010
598.80,0.011
598.85,0.011
598.90,0.013
598.95,0.009
599.00,0.011
599.05,0.012
599.10,0.014
599.15,0.014
599.20,0.017
599.25,0.016
599.30,0.018
599.35,0.017
599.40,0.018
599.45,0.016
599.50,0.016
599.55,0.016
599.60,0.017
599.65,0.014
599.70,0.017
599.75,0.017
599.80,0.016
599.85,0.014
599.90,0.016
599.95,0.015
600.00,0.015
600.05,0.016
600.10,0.016
600.15,0.014
600.20,0.015
600.25,0.014
600.30,0.017
600.35,0.014
600.40,0.016
600.45,0.014
600.50,0.016
600.55,0.012
600.60,0.015
600.65,0.013
600.70,0.015
600.75,0.013
600.80,0.015
600.85,0.011
600.90,0.014
600.95,0.012
601.00,0.014
601.05,0.012
601.10,0.012
601.15,0.012
601.20,0.014
601.25,0.014
601.30,0.014
601.35,0.013
601.40,0.013
601.45,0.012
601.50,0.012
601.55,0.010
601.60,0.012
601.65,0.013
601.70,0.013
601.75,0.012
601.80,0.012
601.85,0.011
601.90,0.012
601.95,0.010
602.00,0.012
602.05,0.010
602.10,0.013
602.15,0.010
602.20,0.012
602.25,0.010
602.30,0.012
602.35,0.011
602.40,0.011
602.45,0.010
602.50,0.011
602.55,0.010
602.60,0.013
602.65,0.009
602.70,0.012
602.75,0.011
602.80,0.011
602.85,0.010
602.90,0.010
602.95,0.011
603.00,0.015
603.05,0.015
603.10,0.015
603.15,0.013
603.20,0.018
603.25,0.015
603.30,0.017
603.35,0.013
603.40,0.017
603.45,0.016
603.50,0.016
603.55,0.013
603.60,0.015
603.65,0.014
603.70,0.016
603.75,0.013
603.80,0.015
603.85,0.015
603.90,0.016
603.95,0.014
604.00,0.016
604.05,0.012
604.10,0.016
604.15,0.013
604.20,0.014
604.25,0.012
604.30,0.015
604.35,0.012
604.40,0.015
604.45,0.012
604.50,0.014
604.55,0.011
604.60,0.014
604.65,0.011
604.70,0.013
604.75,0.010
604.80,0.013
604.85,0.011
604.90,0.012
604.95,0.011
605.00,0.012
605.05,0.011
605.10,0.013
605.15,0.011
605.20,0.013
605.25,0.011
605.30,0.014
605.35,0.011
605.40,0.011
605.45,0.009
605.50,0.012
605.55,0.010
605.60,0.012
605.65,0.008
605.70,0.011
605.75,0.009
605.80,0.011
605.85,0.009
605.90,0.011
605.95,0.009
606.00,0.013
606.05,0.009
606.10,0.012
606.15,0.009
606.20,0.011
606.25,0.009
606.30,0.009
606.35,0.010
606.40,0.011
606.45,0.009
606.50,0.011
606.55,0.010
606.60,0.010
606.65,0.009
606.70,0.010
606.75,0.009
606.80,0.012
606.85,0.011
606.90,0.013
606.95,0.013
607.00,0.015
607.05,0.010
607.10,0.015
607.15,0.012
607.20,0.014
607.25,0.013
607.30,0.015
607.35,0.013
607.40,0.015
607.45,0.013
607.50,0.016
607.55,0.012
607.60,0.014
607.65,0.012
607.70,0.016
607.75,0.011
607.80,0.014
607.85,0.010
607.90,0.015
607.95,0.010
608.00,0.015
608.05,0.012
608.10,0.012
608.15,0.010
608.20,0.012
608.25,0.012
608.30,0.013
608.35,0.010
608.40,0.012
608.45,0.012
608.50,0.012
608.55,0.011
608.60,0.013
608.65,0.011
608.70,0.014
608.75,0.011
608.80,0.011
608.85,0.011
608.90,0.012
608.95,0.011
609.00,0.012
609.05,0.009
609.10,0.012
609.15,0.009
609.20,0.013
609.25,0.008
609.30,0.012
609.35,0.009
609.40,0.013
609.45,0.009
609.50,0.012
609.55,0.009
609.60,0.010
609.65,0.010
609.70,0.009
609.75,0.010
609.80,0.010
609.85,0.008
609.90,0.010
609.95,0.009
610.00,0.011
610.05,0.010
610.10,0.009
610.15,0.008
610.20,0.010
610.25,0.010
610.30,0.010
610.35,0.010
610.40,0.010
610.45,0.008
610.50,0.011
610.55,0.009
610.60,0.009
610.65,0.010
610.70,0.010
610.75,0.012
610.80,0.010
610.85,0.010
610.90,0.013
610.95,0.012
611.00,0.013
611.05,0.014
611.10,0.012
611.15,0.014
611.20,0.013
611.25,0.014
611.30,0.011
611.35,0.013
611.40,0.012
611.45,0.013
611.50,0.012
611.55,0.012
611.60,0.011
611.65,0.012
611.70,0.014
611.75,0.013
611.80,0.011
611.85,0.012
611.90,0.013
611.95,0.012
612.00,0.010
612.05,0.013
612.10,0.010
612.15,0.012
612.20,0.008
612.25,0.014
612.30,0.011
612.35,0.012
612.40,0.012
612.45,0.011
612.50,0.009
612.55,0.012
612.60,0.010
612.65,0.011
612.70,0.009
612.75,0.012
612.80,0.010
612.85,0.013
612.90,0.008
612.95,0.010
613.00,0.009
613.05,0.011
613.10,0.010
613.15,0.013
613.20,0.008
613.25,0.012
613.30,0.010
613.35,0.011
613.40,0.009
613.45,0.011
613.50,0.008
613.55,0.010
613.60,0.009
613.65,0.010
613.70,0.010
613.75,0.011
613.80,0.009
613.85,0.011
613.90,0.009
613.95,0.012
614.00,0.009
614.05,0.011
614.10,0.009
614.15,0.010
614.20,0.007
614.25,0.010
614.30,0.007
614.35,0.012
614.40,0.008
614.45,0.010
614.50,0.009
614.55,0.011
614.60,0.008
614.65,0.010
614.70,0.010
614.75,0.012
614.80,0.010
614.85,0.013
614.90,0.011
614.95,0.011
615.00,0.010
615.05,0.014
615.10,0.010
615.15,0.013
615.20,0.011
615.25,0.015
615.30,0.011
615.35,0.013
615.40,0.011
615.45,0.013
615.50,0.011
615.55,0.013
615.60,0.011
615.65,0.012
615.70,0.011
615.75,0.012
615.80,0.008
615.85,0.011
615.90,0.010
615.95,0.013
616.00,0.010
616.05,0.013
616.10,0.011
616.15,0.012
616.20,0.010
616.25,0.011
616.30,0.011
616.35,0.011
616.40,0.012
616.45,0.011
616.50,0.013
616.55,0.008
616.60,0.012
616.65,0.010
616.70,0.013
616.75,0.011
616.80,0.011
616.85,0.012
616.90,0.011
616.95,0.010
617.00,0.010
617.05,0.011
617.10,0.010
617.15,0.011
617.20,0.008
617.25,0.011
617.30,0.009
617.35,0.012
617.40,0.009
617.45,0.012
617.50,0.009
617.55,0.011
617.60,0.010
617.65,0.012
617.70,0.010
617.75,0.010
617.80,0.010
617.85,0.009
617.90,0.012
617.95,0.009
618.00,0.012
618.05,0.008
618.10,0.012
618.15,0.008
618.20,0.011
618.25,0.009
618.30,0.013
618.35,0.008
618.40,0.010
618.45,0.011
618.50,0.011
618.55,0.010
618.60,0.010
618.65,0.010
618.70,0.010
618.75,0.010
618.80,0.010
618.85,0.008
618.90,0.010
618.95,0.012
619.00,0.012
619.05,0.014
619.10,0.011
619.15,0.013
619.20,0.011
619.25,0.012
619.30,0.012
619.35,0.012
619.40,0.011
619.45,0.014
619.50,0.012
619.55,0.014
619.60,0.012
619.65,0.012
619.70,0.013
619.75,0.011
619.80,0.013
619.85,0.012
619.90,0.013
619.95,0.010
620.00,0.012
620.05,0.011
620.10,0.012
620.15,0.013
620.20,0.012
620.25,0.010
620.30,0.010
620.35,0.010
620.40,0.011
620.45,0.012
620.50,0.010
620.55,0.013
620.60,0.009
620.65,0.013
620.70,0.007
620.75,0.011
620.80,0.009
620.85,0.009
620.90,0.010
620.95,0.011
621.00,0.011
621.05,0.011
621.10,0.012
621.15,0.011
621.20,0.010
621.25,0.009
621.30,0.011
621.35,0.009
621.40,0.012
621.45,0.008
621.50,0.013
621.55,0.010
621.60,0.011
621.65,0.007
621.70,0.011
621.75,0.006
621.80,0.011
621.85,0.007
621.90,0.011
621.95,0.009
622.00,0.012
622.05,0.008
622.10,0.012
622.15,0.007
622.20,0.010
622.25,0.009
622.30,0.010
622.35,0.010
622.40,0.010
622.45,0.008
622.50,0.011
622.55,0.010
622.60,0.008
622.65,0.011
622.70,0.009
622.75,0.012
622.80,0.009
622.85,0.012
622.90,0.008
622.95,0.012
623.00,0.009
623.05,0.010
623.10,0.008
623.15,0.013
623.20,0.011
623.25,0.012
623.30,0.011
623.35,0.012
623.40,0.011
623.45,0.009
623.50,0.011
623.55,0.011
623.60,0.012
623.65,0.009
623.70,0.014
623.75,0.009
623.80,0.011
623.85,0.010
623.90,0.011
623.95,0.011
624.00,0.009
624.05,0.013
624.10,0.011
624.15,0.012
624.20,0.009
624.25,0.011
624.30,0.010
624.35,0.011
624.40,0.009
624.45,0.013
624.50,0.009
624.55,0.007
624.60,0.010
624.65,0.011
624.70,0.010
624.75,0.008
624.80,0.010
624.85,0.007
624.90,0.010
624.95,0.008
625.00,0.011
625.05,0.010
625.10,0.012
625.15,0.008
625.20,0.012
625.25,0.009
625.30,0.009
625.35,0.008
625.40,0.010
625.45,0.009
625.50,0.011
625.55,0.010
625.60,0.008
625.65,0.010
625.70,0.010
625.75,0.011
625.80,0.007
625.85,0.011
625.90,0.009
625.95,0.012
626.00,0.007
626.05,0.011
626.10,0.009
626.15,0.012
626.20,0.007
626.25,0.013
626.30,0.010
626.35,0.011
626.40,0.008
626.45,0.010
626.50,0.009
626.55,0.009
626.60,0.010
626.65,0.009
626.70,0.011
626.75,0.006
626.80,0.009
626.85,0.006
626.90,0.011
626.95,0.009
627.00,0.009
627.05,0.010
627.10,0.009
627.15,0.010
627.20,0.009
627.25,0.009
627.30,0.010
627.35,0.011
627.40,0.008
627.45,0.011
627.50,0.009
627.55,0.010
627.60,0.011
627.65,0.008
627.70,0.010
627.75,0.009
627.80,0.012
627.85,0.010
627.90,0.011
627.95,0.010
628.00,0.014
628.05,0.008
628.10,0.012
628.15,0.010
628.20,0.010
628.25,0.009
628.30,0.011
628.35,0.012
628.40,0.011
628.45,0.010
628.50,0.009
628.55,0.013
628.60,0.008
628.65,0.011
628.70,0.008
628.75,0.012
628.80,0.010
628.85,0.010
628.90,0.008
628.95,0.011
629.00,0.008
629.05,0.011
629.10,0.007
629.15,0.012
629.20,0.010
629.25,0.010
629.30,0.009
629.35,0.009
629.40,0.010
629.45,0.010
629.50,0.010
629.55,0.008
629.60,0.011
629.65,0.008
629.70,0.011
629.75,0.008
629.80,0.010
629.85,0.009
629.90,0.007
629.95,0.011
630.00,0.009
630.05,0.010
630.10,0.005
630.15,0.010
630.20,0.006
630.25,0.012
630.30,0.006
630.35,0.010
630.40,0.009
630.45,0.010
630.50,0.007
630.55,0.009
630.60,0.010
630.65,0.007
630.70,0.011
630.75,0.007
630.80,0.011
630.85,0.008
630.90,0.011
630.95,0.009
631.00,0.012
631.05,0.008
631.10,0.009
631.15,0.010
631.20,0.007
631.25,0.010
631.30,0.008
631.35,0.011
631.40,0.007
631.45,0.012
631.50,0.007
631.55,0.009
631.60,0.008
631.65,0.008
631.70,0.011
631.75,0.009
631.80,0.011
631.85,0.007
631.90,0.011
631.95,0.007
632.00,0.012
632.05,0.009
632.10,0.010
632.15,0.011
632.20,0.008
632.25,0.012
632.30,0.007
632.35,0.012
632.40,0.009
632.45,0.011
632.50,0.009
632.55,0.012
632.60,0.011
632.65,0.011
632.70,0.009
632.75,0.007
632.80,0.012
632.85,0.008
632.90,0.010
632.95,0.008
633.00,0.012
633.05,0.009
633.10,0.008
633.15,0.009
633.20,0.010
633.25,0.011
633.30,0.009
633.35,0.012
633.40,0.008
633.45,0.011
633.50,0.008
633.55,0.013
633.60,0.008
633.65,0.011
633.70,0.009
633.75,0.010
633.80,0.012
633.85,0.010
633.90,0.010
633.95,0.010
634.00,0.010
634.05,0.009
634.10,0.011
634.15,0.009
634.20,0.009
634.25,0.007
634.30,0.010
634.35,0.009
634.40,0.010
634.45,0.010
634.50,0.007
634.55,0.011
634.60,0.008
634.65,0.011
634.70,0.007
634.75,0.011
634.80,0.010
634.85,0.011
634.90,0.008
634.95,0.009
635.00,0.010
635.05,0.008
635.10,0.011
635.15,0.007
635.20,0.011
635.25,0.009
635.30,0.011
635.35,0.007
635.40,0.011
635.45,0.010
635.50,0.009
635.55,0.009
635.60,0.007
635.65,0.011
635.70,0.008
635.75,0.013
635.80,0.009
635.85,0.012
635.90,0.007
635.95,0.009
636.00,0.009
636.05,0.010
636.10,0.011
636.15,0.008
636.20,0.011
636.25,0.008
636.30,0.011
636.35,0.007
636.40,0.013
636.45,0.008
636.50,0.011
636.55,0.010
636.60,0.011
636.65,0.009
636.70,0.012
636.75,0.011
636.80,0.009
636.85,0.011
636.90,0.010
636.95,0.012
637.00,0.008
637.05,0.011
637.10,0.010
637.15,0.012
637.20,0.011
637.25,0.009
637.30,0.010
637.35,0.009
637.40,0.009
637.45,0.010
637.50,0.011
637.55,0.009
637.60,0.011
637.65,0.008
637.70,0.009
637.75,0.009
637.80,0.012
637.85,0.010
637.90,0.009
637.95,0.012
638.00,0.006
638.05,0.009
638.10,0.009
638.15,0.012
638.20,0.008
638.25,0.010
638.30,0.010
638.35,0.008
638.40,0.009
638.45,0.007
638.50,0.012
638.55,0.011
638.60,0.013
638.65,0.008
638.70,0.008
638.75,0.009
638.80,0.009
638.85,0.011
638.90,0.006
638.95,0.011
639.00,0.007
639.05,0.009
639.10,0.010
639.15,0.009
639.20,0.011
639.25,0.006
639.30,0.011
639.35,0.006
639.40,0.011
639.45,0.007
639.50,0.012
639.55,0.008
639.60,0.012
639.65,0.008
639.70,0.008
639.75,0.010
639.80,0.008
639.85,0.011
639.90,0.007
639.95,0.012
640.00,0.008
640.05,0.012
640.10,0.006
640.15,0.010
640.20,0.009
640.25,0.010
640.30,0.007
640.35,0.008
640.40,0.010
640.45,0.006
640.50,0.012
640.55,0.006
640.60,0.012
640.65,0.006
640.70,0.014
640.75,0.008
640.80,0.009
640.85,0.012
640.90,0.008
640.95,0.012
641.00,0.006
641.05,0.011
641.10,0.008
641.15,0.009
641.20,0.011
641.25,0.007
641.30,0.014
641.35,0.008
641.40,0.012
641.45,0.007
641.50,0.010
641.55,0.012
641.60,0.007
641.65,0.012
641.70,0.010
641.75,0.011
641.80,0.007
641.85,0.010
641.90,0.009
641.95,0.009
642.00,0.010
642.05,0.006
642.10,0.012
642.15,0.007
642.20,0.010
642.25,0.009
642.30,0.010
642.35,0.009
642.40,0.009
642.45,0.010
642.50,0.006
642.55,0.010
642.60,0.009
642.65,0.011
642.70,0.008
642.75,0.008
642.80,0.012
642.85,0.009
642.90,0.013
642.95,0.007
643.00,0.011
643.05,0.010
643.10,0.009
643.15,0.011
643.20,0.007
643.25,0.011
643.30,0.007
643.35,0.010
643.40,0.008
643.45,0.009
643.50,0.009
643.55,0.008
643.60,0.010
643.65,0.006
643.70,0.013
643.75,0.006
643.80,0.009
643.85,0.008
643.90,0.006
643.95,0.010
644.00,0.006
644.05,0.012
644.10,0.007
644.15,0.011
644.20,0.011
644.25,0.005
644.30,0.011
644.35,0.005
644.40,0.009
644.45,0.008
644.50,0.006
644.55,0.011
644.60,0.007
644.65,0.012
644.70,0.010
644.75,0.009
644.80,0.009
644.85,0.007
644.90,0.013
644.95,0.007
645.00,0.012
645.05,0.007
645.10,0.009
645.15,0.008
645.20,0.007
645.25,0.010
645.30,0.007
645.35,0.012
645.40,0.007
645.45,0.012
645.50,0.008
645.55,0.010
645.60,0.009
645.65,0.008
645.70,0.013
645.75,0.007
645.80,0.011
645.85,0.007
645.90,0.009
645.95,0.008
646.00,0.007
646.05,0.011
646.10,0.007
646.15,0.010
646.20,0.007
646.25,0.011
646.30,0.008
646.35,0.006
646.40,0.010
646.45,0.008
646.50,0.010
646.55,0.008
646.60,0.009
646.65,0.008
646.70,0.008
646.75,0.011
646.80,0.007
646.85,0.010
646.90,0.008
646.95,0.007
647.00,0.010
647.05,0.008
647.10,0.011
647.15,0.007
647.20,0.010
647.25,0.007
647.30,0.010
647.35,0.007
647.40,0.007
647.45,0.009
647.50,0.009
647.55,0.011
647.60,0.006
647.65,0.010
647.70,0.009
647.75,0.007
647.80,0.009
647.85,0.006
647.90,0.012
647.95,0.007
648.00,0.009
648.05,0.007
648.10,0.010
648.15,0.007
648.20,0.009
648.25,0.009
648.30,0.009
648.35,0.010
648.40,0.006
648.45,0.011
648.50,0.007
648.55,0.008
648.60,0.008
648.65,0.010
648.70,0.009
648.75,0.007
648.80,0.008
648.85,0.008
648.90,0.011
648.95,0.005
649.00,0.012
649.05,0.009
649.10,0.009
649.15,0.007
649.20,0.008
649.25,0.014
649.30,0.006
649.35,0.013
649.40,0.007
649.45,0.010
649.50,0.008
649.55,0.005
649.60,0.010
649.65,0.007
649.70,0.011
649.75,0.008
649.80,0.011
649.85,0.008
649.90,0.009
649.95,0.011
650.00,0.006
